[{"success":true,"trial_type":"fullscreen","trial_index":0,"time_elapsed":2853,"internal_node_id":"0.0-0.0","exp_id":"outcome-response-priming-task","full_screen":true,"focus_shifts":0},{"rt":3985,"stimulus":"<p>In this part of the experiment, you will see a dot on a coloured screen.</p><p>Move the dot past the line on the left or right as fast as you can to win rewards.</p><p>Press any key to begin.</p>","key_press":32,"trial_type":"html-keyboard-response","trial_index":1,"time_elapsed":6845,"internal_node_id":"0.0-1.0","exp_id":"outcome-response-priming-task","full_screen":true,"focus_shifts":0},{"rt":null,"prompt":"<div id=\"distraction-prompt\">Keep the dot within the square.</div>","direction":"","test_part":"learn-iti","trial_type":"html-mouse-response","trial_index":2,"time_elapsed":10855,"internal_node_id":"0.0-2.0-0.0","exp_id":"outcome-response-priming-task","full_screen":true,"focus_shifts":0},{"rt":null,"prompt":null,"direction":"right","test_part":"test","correct_response":"right","trial_type":"html-mouse-response","trial_index":3,"time_elapsed":11742,"internal_node_id":"0.0-2.0-1.0","correct":true,"exp_id":"outcome-response-priming-task","full_screen":true,"focus_shifts":0},{"rt":null,"stimulus":"img/crisp.jpg","key_press":null,"test_part":"outcome","trial_type":"image-keyboard-response","trial_index":4,"time_elapsed":14755,"internal_node_id":"0.0-2.0-2.0-0.0","exp_id":"outcome-response-priming-task","full_screen":true,"focus_shifts":0},{"rt":null,"prompt":"<div id=\"distraction-prompt\">Keep the dot within the square.</div>","direction":"","test_part":"learn-iti","trial_type":"html-mouse-response","trial_index":5,"time_elapsed":16262,"internal_node_id":"0.0-2.0-0.1","exp_id":"outcome-response-priming-task","full_screen":true,"focus_shifts":0},{"rt":null,"prompt":null,"direction":"left","test_part":"test","correct_response":"left","trial_type":"html-mouse-response","trial_index":6,"time_elapsed":16999,"internal_node_id":"0.0-2.0-1.1","correct":true,"exp_id":"outcome-response-priming-task","full_screen":true,"focus_shifts":0},{"rt":null,"stimulus":"img/chocolate.jpg","key_press":null,"test_part":"outcome","trial_type":"image-keyboard-response","trial_index":7,"time_elapsed":20005,"internal_node_id":"0.0-2.0-2.1-0.1","exp_id":"outcome-response-priming-task","full_screen":true,"focus_shifts":0},{"rt":null,"prompt":"<div id=\"distraction-prompt\">Keep the dot within the square.</div>","direction":"","test_part":"learn-iti","trial_type":"html-mouse-response","trial_index":8,"time_elapsed":20260,"internal_node_id":"0.0-2.0-0.2","exp_id":"outcome-response-priming-task","full_screen":true,"focus_shifts":0},{"rt":null,"prompt":null,"direction":"right","test_part":"test","correct_response":"right","trial_type":"html-mouse-response","trial_index":9,"time_elapsed":21773,"internal_node_id":"0.0-2.0-1.2","correct":true,"exp_id":"outcome-response-priming-task","full_screen":true,"focus_shifts":0},{"rt":null,"stimulus":"img/crisp.jpg","key_press":null,"test_part":"outcome","trial_type":"image-keyboard-response","trial_index":10,"time_elapsed":24777,"internal_node_id":"0.0-2.0-2.2-0.2","exp_id":"outcome-response-priming-task","full_screen":true,"focus_shifts":0},{"rt":null,"prompt":"<div id=\"distraction-prompt\">Keep the dot within the square.</div>","direction":"","test_part":"learn-iti","trial_type":"html-mouse-response","trial_index":11,"time_elapsed":25031,"internal_node_id":"0.0-2.0-0.3","exp_id":"outcome-response-priming-task","full_screen":true,"focus_shifts":0},{"rt":null,"prompt":null,"direction":"right","test_part":"test","correct_response":"right","trial_type":"html-mouse-response","trial_index":12,"time_elapsed":28094,"internal_node_id":"0.0-2.0-1.3","correct":true,"exp_id":"outcome-response-priming-task","full_screen":true,"focus_shifts":0},{"rt":null,"stimulus":"img/crisp.jpg","key_press":null,"test_part":"outcome","trial_type":"image-keyboard-response","trial_index":13,"time_elapsed":31099,"internal_node_id":"0.0-2.0-2.3-0.3","exp_id":"outcome-response-priming-task","full_screen":true,"focus_shifts":0},{"rt":null,"prompt":"<div id=\"distraction-prompt\">Keep the dot within the square.</div>","direction":"","test_part":"learn-iti","trial_type":"html-mouse-response","trial_index":14,"time_elapsed":32852,"internal_node_id":"0.0-2.0-0.4","exp_id":"outcome-response-priming-task","full_screen":true,"focus_shifts":0},{"rt":null,"prompt":null,"direction":"right","test_part":"test","correct_response":"right","trial_type":"html-mouse-response","trial_index":15,"time_elapsed":33974,"internal_node_id":"0.0-2.0-1.4","correct":true,"exp_id":"outcome-response-priming-task","full_screen":true,"focus_shifts":0},{"rt":null,"stimulus":"img/crisp.jpg","key_press":null,"test_part":"outcome","trial_type":"image-keyboard-response","trial_index":16,"time_elapsed":36976,"internal_node_id":"0.0-2.0-2.4-0.4","exp_id":"outcome-response-priming-task","full_screen":true,"focus_shifts":0},{"rt":null,"prompt":"<div id=\"distraction-prompt\">Keep the dot within the square.</div>","direction":"","test_part":"learn-iti","trial_type":"html-mouse-response","trial_index":17,"time_elapsed":38480,"internal_node_id":"0.0-2.0-0.5","exp_id":"outcome-response-priming-task","full_screen":true,"focus_shifts":0},{"rt":null,"prompt":null,"direction":"right","test_part":"test","correct_response":"right","trial_type":"html-mouse-response","trial_index":18,"time_elapsed":39118,"internal_node_id":"0.0-2.0-1.5","correct":true,"exp_id":"outcome-response-priming-task","full_screen":true,"focus_shifts":0},{"rt":null,"stimulus":"img/crisp.jpg","key_press":null,"test_part":"outcome","trial_type":"image-keyboard-response","trial_index":19,"time_elapsed":42121,"internal_node_id":"0.0-2.0-2.5-0.5","exp_id":"outcome-response-priming-task","full_screen":true,"focus_shifts":0},{"rt":null,"prompt":"<div id=\"distraction-prompt\">Keep the dot within the square.</div>","direction":"","test_part":"learn-iti","trial_type":"html-mouse-response","trial_index":20,"time_elapsed":43625,"internal_node_id":"0.0-2.0-0.6","exp_id":"outcome-response-priming-task","full_screen":true,"focus_shifts":0},{"rt":null,"prompt":null,"direction":"right","test_part":"test","correct_response":"right","trial_type":"html-mouse-response","trial_index":21,"time_elapsed":44573,"internal_node_id":"0.0-2.0-1.6","correct":true,"exp_id":"outcome-response-priming-task","full_screen":true,"focus_shifts":0},{"rt":null,"stimulus":"img/crisp.jpg","key_press":null,"test_part":"outcome","trial_type":"image-keyboard-response","trial_index":22,"time_elapsed":47583,"internal_node_id":"0.0-2.0-2.6-0.6","exp_id":"outcome-response-priming-task","full_screen":true,"focus_shifts":0},{"rt":null,"prompt":"<div id=\"distraction-prompt\">Keep the dot within the square.</div>","direction":"","test_part":"learn-iti","trial_type":"html-mouse-response","trial_index":23,"time_elapsed":49336,"internal_node_id":"0.0-2.0-0.7","exp_id":"outcome-response-priming-task","full_screen":true,"focus_shifts":0},{"rt":null,"prompt":null,"direction":"right","test_part":"test","correct_response":"right","trial_type":"html-mouse-response","trial_index":24,"time_elapsed":49352,"internal_node_id":"0.0-2.0-1.7","correct":true,"exp_id":"outcome-response-priming-task","full_screen":true,"focus_shifts":0},{"rt":null,"stimulus":"img/crisp.jpg","key_press":null,"test_part":"outcome","trial_type":"image-keyboard-response","trial_index":25,"time_elapsed":52355,"internal_node_id":"0.0-2.0-2.7-0.7","exp_id":"outcome-response-priming-task","full_screen":true,"focus_shifts":0},{"rt":null,"prompt":"<div id=\"distraction-prompt\">Keep the dot within the square.</div>","direction":"","test_part":"learn-iti","trial_type":"html-mouse-response","trial_index":26,"time_elapsed":54358,"internal_node_id":"0.0-2.0-0.8","exp_id":"outcome-response-priming-task","full_screen":true,"focus_shifts":0},{"rt":null,"prompt":null,"direction":"right","test_part":"test","correct_response":"right","trial_type":"html-mouse-response","trial_index":27,"time_elapsed":55331,"internal_node_id":"0.0-2.0-1.8","correct":true,"exp_id":"outcome-response-priming-task","full_screen":true,"focus_shifts":0},{"rt":null,"stimulus":"img/crisp.jpg","key_press":null,"test_part":"outcome","trial_type":"image-keyboard-response","trial_index":28,"time_elapsed":58334,"internal_node_id":"0.0-2.0-2.8-0.8","exp_id":"outcome-response-priming-task","full_screen":true,"focus_shifts":0},{"rt":null,"prompt":"<div id=\"distraction-prompt\">Keep the dot within the square.</div>","direction":"","test_part":"learn-iti","trial_type":"html-mouse-response","trial_index":29,"time_elapsed":58588,"internal_node_id":"0.0-2.0-0.9","exp_id":"outcome-response-priming-task","full_screen":true,"focus_shifts":0},{"rt":null,"prompt":null,"direction":"right","test_part":"test","correct_response":"right","trial_type":"html-mouse-response","trial_index":30,"time_elapsed":58605,"internal_node_id":"0.0-2.0-1.9","correct":true,"exp_id":"outcome-response-priming-task","full_screen":true,"focus_shifts":0},{"rt":null,"stimulus":"img/crisp.jpg","key_press":null,"test_part":"outcome","trial_type":"image-keyboard-response","trial_index":31,"time_elapsed":61608,"internal_node_id":"0.0-2.0-2.9-0.9","exp_id":"outcome-response-priming-task","full_screen":true,"focus_shifts":0},{"rt":null,"prompt":"<div id=\"distraction-prompt\">Keep the dot within the square.</div>","direction":"","test_part":"learn-iti","trial_type":"html-mouse-response","trial_index":32,"time_elapsed":63111,"internal_node_id":"0.0-2.0-0.10","exp_id":"outcome-response-priming-task","full_screen":true,"focus_shifts":0},{"rt":null,"prompt":null,"direction":"right","test_part":"test","correct_response":"right","trial_type":"html-mouse-response","trial_index":33,"time_elapsed":65185,"internal_node_id":"0.0-2.0-1.10","correct":true,"exp_id":"outcome-response-priming-task","full_screen":true,"focus_shifts":0},{"rt":null,"stimulus":"img/crisp.jpg","key_press":null,"test_part":"outcome","trial_type":"image-keyboard-response","trial_index":34,"time_elapsed":68192,"internal_node_id":"0.0-2.0-2.10-0.10","exp_id":"outcome-response-priming-task","full_screen":true,"focus_shifts":0},{"rt":null,"prompt":"<div id=\"distraction-prompt\">Keep the dot within the square.</div>","direction":"","test_part":"learn-iti","trial_type":"html-mouse-response","trial_index":35,"time_elapsed":70199,"internal_node_id":"0.0-2.0-0.11","exp_id":"outcome-response-priming-task","full_screen":true,"focus_shifts":0},{"rt":null,"prompt":null,"direction":"left","test_part":"test","correct_response":"left","trial_type":"html-mouse-response","trial_index":36,"time_elapsed":70906,"internal_node_id":"0.0-2.0-1.11","correct":true,"exp_id":"outcome-response-priming-task","full_screen":true,"focus_shifts":0},{"rt":null,"stimulus":"img/chocolate.jpg","key_press":null,"test_part":"outcome","trial_type":"image-keyboard-response","trial_index":37,"time_elapsed":73911,"internal_node_id":"0.0-2.0-2.11-0.11","exp_id":"outcome-response-priming-task","full_screen":true,"focus_shifts":0},{"rt":null,"prompt":"<div id=\"distraction-prompt\">Keep the dot within the square.</div>","direction":"","test_part":"learn-iti","trial_type":"html-mouse-response","trial_index":38,"time_elapsed":75415,"internal_node_id":"0.0-2.0-0.12","exp_id":"outcome-response-priming-task","full_screen":true,"focus_shifts":0},{"rt":null,"prompt":null,"direction":"left","test_part":"test","correct_response":"left","trial_type":"html-mouse-response","trial_index":39,"time_elapsed":78742,"internal_node_id":"0.0-2.0-1.12","correct":true,"exp_id":"outcome-response-priming-task","full_screen":true,"focus_shifts":0},{"rt":null,"stimulus":"img/chocolate.jpg","key_press":null,"test_part":"outcome","trial_type":"image-keyboard-response","trial_index":40,"time_elapsed":81752,"internal_node_id":"0.0-2.0-2.12-0.12","exp_id":"outcome-response-priming-task","full_screen":true,"focus_shifts":0},{"rt":null,"prompt":"<div id=\"distraction-prompt\">Keep the dot within the square.</div>","direction":"","test_part":"learn-iti","trial_type":"html-mouse-response","trial_index":41,"time_elapsed":82009,"internal_node_id":"0.0-2.0-0.13","exp_id":"outcome-response-priming-task","full_screen":true,"focus_shifts":0},{"rt":null,"prompt":null,"direction":"left","test_part":"test","correct_response":"left","trial_type":"html-mouse-response","trial_index":42,"time_elapsed":84863,"internal_node_id":"0.0-2.0-1.13","correct":true,"exp_id":"outcome-response-priming-task","full_screen":true,"focus_shifts":0},{"rt":null,"stimulus":"img/chocolate.jpg","key_press":null,"test_part":"outcome","trial_type":"image-keyboard-response","trial_index":43,"time_elapsed":87865,"internal_node_id":"0.0-2.0-2.13-0.13","exp_id":"outcome-response-priming-task","full_screen":true,"focus_shifts":0},{"rt":null,"prompt":"<div id=\"distraction-prompt\">Keep the dot within the square.</div>","direction":"","test_part":"learn-iti","trial_type":"html-mouse-response","trial_index":44,"time_elapsed":88368,"internal_node_id":"0.0-2.0-0.14","exp_id":"outcome-response-priming-task","full_screen":true,"focus_shifts":0},{"rt":null,"prompt":null,"direction":"left","test_part":"test","correct_response":"left","trial_type":"html-mouse-response","trial_index":45,"time_elapsed":89976,"internal_node_id":"0.0-2.0-1.14","correct":true,"exp_id":"outcome-response-priming-task","full_screen":true,"focus_shifts":0},{"rt":null,"stimulus":"img/chocolate.jpg","key_press":null,"test_part":"outcome","trial_type":"image-keyboard-response","trial_index":46,"time_elapsed":92980,"internal_node_id":"0.0-2.0-2.14-0.14","exp_id":"outcome-response-priming-task","full_screen":true,"focus_shifts":0},{"rt":null,"prompt":"<div id=\"distraction-prompt\">Keep the dot within the square.</div>","direction":"","test_part":"learn-iti","trial_type":"html-mouse-response","trial_index":47,"time_elapsed":93734,"internal_node_id":"0.0-2.0-0.15","exp_id":"outcome-response-priming-task","full_screen":true,"focus_shifts":0},{"rt":null,"prompt":null,"direction":"left","test_part":"test","correct_response":"left","trial_type":"html-mouse-response","trial_index":48,"time_elapsed":94896,"internal_node_id":"0.0-2.0-1.15","correct":true,"exp_id":"outcome-response-priming-task","full_screen":true,"focus_shifts":0},{"rt":null,"stimulus":"img/chocolate.jpg","key_press":null,"test_part":"outcome","trial_type":"image-keyboard-response","trial_index":49,"time_elapsed":97901,"internal_node_id":"0.0-2.0-2.15-0.15","exp_id":"outcome-response-priming-task","full_screen":true,"focus_shifts":0},{"rt":null,"prompt":"<div id=\"distraction-prompt\">Keep the dot within the square.</div>","direction":"","test_part":"learn-iti","trial_type":"html-mouse-response","trial_index":50,"time_elapsed":98906,"internal_node_id":"0.0-2.0-0.16","exp_id":"outcome-response-priming-task","full_screen":true,"focus_shifts":0},{"rt":null,"prompt":null,"direction":"left","test_part":"test","correct_response":"left","trial_type":"html-mouse-response","trial_index":51,"time_elapsed":99592,"internal_node_id":"0.0-2.0-1.16","correct":true,"exp_id":"outcome-response-priming-task","full_screen":true,"focus_shifts":0},{"rt":null,"stimulus":"img/chocolate.jpg","key_press":null,"test_part":"outcome","trial_type":"image-keyboard-response","trial_index":52,"time_elapsed":102595,"internal_node_id":"0.0-2.0-2.16-0.16","exp_id":"outcome-response-priming-task","full_screen":true,"focus_shifts":0},{"rt":null,"prompt":"<div id=\"distraction-prompt\">Keep the dot within the square.</div>","direction":"","test_part":"learn-iti","trial_type":"html-mouse-response","trial_index":53,"time_elapsed":104597,"internal_node_id":"0.0-2.0-0.17","exp_id":"outcome-response-priming-task","full_screen":true,"focus_shifts":0},{"rt":null,"prompt":null,"direction":"left","test_part":"test","correct_response":"left","trial_type":"html-mouse-response","trial_index":54,"time_elapsed":105268,"internal_node_id":"0.0-2.0-1.17","correct":true,"exp_id":"outcome-response-priming-task","full_screen":true,"focus_shifts":0},{"rt":null,"stimulus":"img/chocolate.jpg","key_press":null,"test_part":"outcome","trial_type":"image-keyboard-response","trial_index":55,"time_elapsed":108271,"internal_node_id":"0.0-2.0-2.17-0.17","exp_id":"outcome-response-priming-task","full_screen":true,"focus_shifts":0},{"rt":null,"prompt":"<div id=\"distraction-prompt\">Keep the dot within the square.</div>","direction":"","test_part":"learn-iti","trial_type":"html-mouse-response","trial_index":56,"time_elapsed":110024,"internal_node_id":"0.0-2.0-0.18","exp_id":"outcome-response-priming-task","full_screen":true,"focus_shifts":0},{"rt":null,"prompt":null,"direction":"left","test_part":"test","correct_response":"left","trial_type":"html-mouse-response","trial_index":57,"time_elapsed":110943,"internal_node_id":"0.0-2.0-1.18","correct":true,"exp_id":"outcome-response-priming-task","full_screen":true,"focus_shifts":0},{"rt":null,"stimulus":"img/chocolate.jpg","key_press":null,"test_part":"outcome","trial_type":"image-keyboard-response","trial_index":58,"time_elapsed":113946,"internal_node_id":"0.0-2.0-2.18-0.18","exp_id":"outcome-response-priming-task","full_screen":true,"focus_shifts":0},{"rt":null,"prompt":"<div id=\"distraction-prompt\">Keep the dot within the square.</div>","direction":"","test_part":"learn-iti","trial_type":"html-mouse-response","trial_index":59,"time_elapsed":115449,"internal_node_id":"0.0-2.0-0.19","exp_id":"outcome-response-priming-task","full_screen":true,"focus_shifts":0},{"rt":null,"prompt":null,"direction":"left","test_part":"test","correct_response":"left","trial_type":"html-mouse-response","trial_index":60,"time_elapsed":116958,"internal_node_id":"0.0-2.0-1.19","correct":true,"exp_id":"outcome-response-priming-task","full_screen":true,"focus_shifts":0},{"rt":null,"stimulus":"img/chocolate.jpg","key_press":null,"test_part":"outcome","trial_type":"image-keyboard-response","trial_index":61,"time_elapsed":119962,"internal_node_id":"0.0-2.0-2.19-0.19","exp_id":"outcome-response-priming-task","full_screen":true,"focus_shifts":0},{"rt":null,"prompt":"<div id=\"distraction-prompt\">Keep the dot within the square.</div>","direction":"","test_part":"learn-iti","trial_type":"html-mouse-response","trial_index":62,"time_elapsed":121214,"internal_node_id":"0.0-2.0-0.20","exp_id":"outcome-response-priming-task","full_screen":true,"focus_shifts":0},{"rt":null,"prompt":null,"direction":"left","test_part":"test","correct_response":"left","trial_type":"html-mouse-response","trial_index":63,"time_elapsed":122736,"internal_node_id":"0.0-2.0-1.20","correct":true,"exp_id":"outcome-response-priming-task","full_screen":true,"focus_shifts":0},{"rt":null,"stimulus":"img/chocolate.jpg","key_press":null,"test_part":"outcome","trial_type":"image-keyboard-response","trial_index":64,"time_elapsed":125741,"internal_node_id":"0.0-2.0-2.20-0.20","exp_id":"outcome-response-priming-task","full_screen":true,"focus_shifts":0},{"rt":null,"prompt":"<div id=\"distraction-prompt\">Keep the dot within the square.</div>","direction":"","test_part":"learn-iti","trial_type":"html-mouse-response","trial_index":65,"time_elapsed":127244,"internal_node_id":"0.0-2.0-0.21","exp_id":"outcome-response-priming-task","full_screen":true,"focus_shifts":0},{"rt":null,"prompt":null,"direction":"right","test_part":"test","correct_response":"right","trial_type":"html-mouse-response","trial_index":66,"time_elapsed":127703,"internal_node_id":"0.0-2.0-1.21","correct":true,"exp_id":"outcome-response-priming-task","full_screen":true,"focus_shifts":0},{"rt":null,"stimulus":"img/crisp.jpg","key_press":null,"test_part":"outcome","trial_type":"image-keyboard-response","trial_index":67,"time_elapsed":130707,"internal_node_id":"0.0-2.0-2.21-0.21","exp_id":"outcome-response-priming-task","full_screen":true,"focus_shifts":0},{"rt":null,"prompt":"<div id=\"distraction-prompt\">Keep the dot within the square.</div>","direction":"","test_part":"learn-iti","trial_type":"html-mouse-response","trial_index":68,"time_elapsed":132459,"internal_node_id":"0.0-2.0-0.22","exp_id":"outcome-response-priming-task","full_screen":true,"focus_shifts":0},{"rt":null,"prompt":null,"direction":"right","test_part":"test","correct_response":"right","trial_type":"html-mouse-response","trial_index":69,"time_elapsed":133029,"internal_node_id":"0.0-2.0-1.22","correct":true,"exp_id":"outcome-response-priming-task","full_screen":true,"focus_shifts":0},{"rt":null,"stimulus":"img/crisp.jpg","key_press":null,"test_part":"outcome","trial_type":"image-keyboard-response","trial_index":70,"time_elapsed":136032,"internal_node_id":"0.0-2.0-2.22-0.22","exp_id":"outcome-response-priming-task","full_screen":true,"focus_shifts":0},{"rt":null,"prompt":"<div id=\"distraction-prompt\">Keep the dot within the square.</div>","direction":"","test_part":"learn-iti","trial_type":"html-mouse-response","trial_index":71,"time_elapsed":137035,"internal_node_id":"0.0-2.0-0.23","exp_id":"outcome-response-priming-task","full_screen":true,"focus_shifts":0},{"rt":null,"prompt":null,"direction":"left","test_part":"test","correct_response":"left","trial_type":"html-mouse-response","trial_index":72,"time_elapsed":138031,"internal_node_id":"0.0-2.0-1.23","correct":true,"exp_id":"outcome-response-priming-task","full_screen":true,"focus_shifts":0},{"rt":null,"stimulus":"img/chocolate.jpg","key_press":null,"test_part":"outcome","trial_type":"image-keyboard-response","trial_index":73,"time_elapsed":141034,"internal_node_id":"0.0-2.0-2.23-0.23","exp_id":"outcome-response-priming-task","full_screen":true,"focus_shifts":0},{"rt":1993,"stimulus":"<p>In this part of the experiment, you will see a picture of either crisp or chocolate for a few seconds. When the picture first disappears, don't move the mouse as you will lose points.<p>When the screen changes colour, if you saw <strong>crisp</strong>, move the dot past the <strong>right</strong> line, or if you saw <strong>chocolate</strong>, move the dot past the <strong>left</strong> line. Respond as quickly and accurately as you can.</p><p>Press any key to begin.</p>","key_press":32,"trial_type":"html-keyboard-response","trial_index":74,"time_elapsed":143028,"internal_node_id":"0.0-3.0","exp_id":"outcome-response-priming-task","full_screen":true,"focus_shifts":0},{"rt":null,"stimulus":"<div>On the following trial, you can earn 1 crisp point</div>","key_press":null,"test_part":"test-response","correct_response":"right","trial_type":"html-keyboard-response","trial_index":75,"time_elapsed":147530,"internal_node_id":"0.0-4.0-0.0","exp_id":"outcome-response-priming-task","full_screen":true,"focus_shifts":0},{"rt":null,"stimulus":"img/crisp.jpg","key_press":null,"test_part":"test-response","correct_response":"right","trial_type":"image-keyboard-response","trial_index":76,"time_elapsed":150533,"internal_node_id":"0.0-4.0-1.0","exp_id":"outcome-response-priming-task","full_screen":true,"focus_shifts":0},{"rt":null,"prompt":"<div id=\"distraction-prompt\">Keep the dot within the square.</div>","direction":"","test_part":"test-response","correct_response":"right","trial_type":"html-mouse-response","trial_index":77,"time_elapsed":154536,"internal_node_id":"0.0-4.0-2.0","exp_id":"outcome-response-priming-task","full_screen":true,"focus_shifts":0},{"rt":null,"prompt":null,"direction":"right","test_part":"test-response","correct_response":"right","trial_type":"html-mouse-response","trial_index":78,"time_elapsed":155206,"internal_node_id":"0.0-4.0-3.0","correct":true,"exp_id":"outcome-response-priming-task","full_screen":true,"focus_shifts":0},{"rt":null,"stimulus":"<div>On the following trial, you can earn 1 crisp point</div>","key_press":null,"test_part":"test-response","correct_response":"right","trial_type":"html-keyboard-response","trial_index":79,"time_elapsed":157708,"internal_node_id":"0.0-4.0-0.1","exp_id":"outcome-response-priming-task","full_screen":true,"focus_shifts":0},{"rt":null,"stimulus":"img/crisp.jpg","key_press":null,"test_part":"test-response","correct_response":"right","trial_type":"image-keyboard-response","trial_index":80,"time_elapsed":160713,"internal_node_id":"0.0-4.0-1.1","exp_id":"outcome-response-priming-task","full_screen":true,"focus_shifts":0},{"rt":null,"prompt":"<div id=\"distraction-prompt\">Keep the dot within the square.</div>","direction":"","test_part":"test-response","correct_response":"right","trial_type":"html-mouse-response","trial_index":81,"time_elapsed":170718,"internal_node_id":"0.0-4.0-2.1","exp_id":"outcome-response-priming-task","full_screen":true,"focus_shifts":0},{"rt":null,"prompt":null,"direction":"right","test_part":"test-response","correct_response":"right","trial_type":"html-mouse-response","trial_index":82,"time_elapsed":172224,"internal_node_id":"0.0-4.0-3.1","correct":true,"exp_id":"outcome-response-priming-task","full_screen":true,"focus_shifts":0},{"rt":null,"stimulus":"<div>On the following trial, you can earn 1 chocolate point</div>","key_press":null,"test_part":"test-response","correct_response":"left","trial_type":"html-keyboard-response","trial_index":83,"time_elapsed":174726,"internal_node_id":"0.0-4.0-0.2","exp_id":"outcome-response-priming-task","full_screen":true,"focus_shifts":0},{"rt":null,"stimulus":"img/chocolate.jpg","key_press":null,"test_part":"test-response","correct_response":"left","trial_type":"image-keyboard-response","trial_index":84,"time_elapsed":177728,"internal_node_id":"0.0-4.0-1.2","exp_id":"outcome-response-priming-task","full_screen":true,"focus_shifts":0},{"rt":null,"prompt":"<div id=\"distraction-prompt\">Keep the dot within the square.</div>","direction":"","test_part":"test-response","correct_response":"left","trial_type":"html-mouse-response","trial_index":85,"time_elapsed":181730,"internal_node_id":"0.0-4.0-2.2","exp_id":"outcome-response-priming-task","full_screen":true,"focus_shifts":0},{"rt":null,"prompt":null,"direction":"left","test_part":"test-response","correct_response":"left","trial_type":"html-mouse-response","trial_index":86,"time_elapsed":182504,"internal_node_id":"0.0-4.0-3.2","correct":true,"exp_id":"outcome-response-priming-task","full_screen":true,"focus_shifts":0},{"rt":null,"stimulus":"<div>On the following trial, you can earn 1 chocolate point</div>","key_press":null,"test_part":"test-response","correct_response":"left","trial_type":"html-keyboard-response","trial_index":87,"time_elapsed":185007,"internal_node_id":"0.0-4.0-0.3","exp_id":"outcome-response-priming-task","full_screen":true,"focus_shifts":0},{"rt":null,"stimulus":"img/chocolate.jpg","key_press":null,"test_part":"test-response","correct_response":"left","trial_type":"image-keyboard-response","trial_index":88,"time_elapsed":188008,"internal_node_id":"0.0-4.0-1.3","exp_id":"outcome-response-priming-task","full_screen":true,"focus_shifts":0},{"rt":null,"prompt":"<div id=\"distraction-prompt\">Keep the dot within the square.</div>","direction":"","test_part":"test-response","correct_response":"left","trial_type":"html-mouse-response","trial_index":89,"time_elapsed":192011,"internal_node_id":"0.0-4.0-2.3","exp_id":"outcome-response-priming-task","full_screen":true,"focus_shifts":0},{"rt":null,"prompt":null,"direction":"left","test_part":"test-response","correct_response":"left","trial_type":"html-mouse-response","trial_index":90,"time_elapsed":193374,"internal_node_id":"0.0-4.0-3.3","correct":true,"exp_id":"outcome-response-priming-task","full_screen":true,"focus_shifts":0},{"rt":null,"stimulus":"<div>On the following trial, you can earn 1 chocolate point</div>","key_press":null,"test_part":"test-response","correct_response":"left","trial_type":"html-keyboard-response","trial_index":91,"time_elapsed":195876,"internal_node_id":"0.0-4.0-0.4","exp_id":"outcome-response-priming-task","full_screen":true,"focus_shifts":0},{"rt":null,"stimulus":"img/chocolate.jpg","key_press":null,"test_part":"test-response","correct_response":"left","trial_type":"image-keyboard-response","trial_index":92,"time_elapsed":198879,"internal_node_id":"0.0-4.0-1.4","exp_id":"outcome-response-priming-task","full_screen":true,"focus_shifts":0},{"rt":null,"prompt":"<div id=\"distraction-prompt\">Keep the dot within the square.</div>","direction":"","test_part":"test-response","correct_response":"left","trial_type":"html-mouse-response","trial_index":93,"time_elapsed":208882,"internal_node_id":"0.0-4.0-2.4","exp_id":"outcome-response-priming-task","full_screen":true,"focus_shifts":0},{"rt":null,"prompt":null,"direction":"left","test_part":"test-response","correct_response":"left","trial_type":"html-mouse-response","trial_index":94,"time_elapsed":209534,"internal_node_id":"0.0-4.0-3.4","correct":true,"exp_id":"outcome-response-priming-task","full_screen":true,"focus_shifts":0},{"rt":null,"stimulus":"<div>On the following trial, you can earn 1 chocolate point</div>","key_press":null,"test_part":"test-response","correct_response":"left","trial_type":"html-keyboard-response","trial_index":95,"time_elapsed":212037,"internal_node_id":"0.0-4.0-0.5","exp_id":"outcome-response-priming-task","full_screen":true,"focus_shifts":0},{"rt":null,"stimulus":"img/chocolate.jpg","key_press":null,"test_part":"test-response","correct_response":"left","trial_type":"image-keyboard-response","trial_index":96,"time_elapsed":215038,"internal_node_id":"0.0-4.0-1.5","exp_id":"outcome-response-priming-task","full_screen":true,"focus_shifts":0},{"rt":null,"prompt":"<div id=\"distraction-prompt\">Keep the dot within the square.</div>","direction":"","test_part":"test-response","correct_response":"left","trial_type":"html-mouse-response","trial_index":97,"time_elapsed":225042,"internal_node_id":"0.0-4.0-2.5","exp_id":"outcome-response-priming-task","full_screen":true,"focus_shifts":0},{"rt":null,"prompt":null,"direction":"left","test_part":"test-response","correct_response":"left","trial_type":"html-mouse-response","trial_index":98,"time_elapsed":226184,"internal_node_id":"0.0-4.0-3.5","correct":true,"exp_id":"outcome-response-priming-task","full_screen":true,"focus_shifts":0},{"rt":null,"stimulus":"<div>On the following trial, you can earn 1 crisp point</div>","key_press":null,"test_part":"test-response","correct_response":"right","trial_type":"html-keyboard-response","trial_index":99,"time_elapsed":228685,"internal_node_id":"0.0-4.0-0.6","exp_id":"outcome-response-priming-task","full_screen":true,"focus_shifts":0},{"rt":null,"stimulus":"img/crisp.jpg","key_press":null,"test_part":"test-response","correct_response":"right","trial_type":"image-keyboard-response","trial_index":100,"time_elapsed":231688,"internal_node_id":"0.0-4.0-1.6","exp_id":"outcome-response-priming-task","full_screen":true,"focus_shifts":0},{"rt":null,"prompt":"<div id=\"distraction-prompt\">Keep the dot within the square.</div>","direction":"","test_part":"test-response","correct_response":"right","trial_type":"html-mouse-response","trial_index":101,"time_elapsed":235690,"internal_node_id":"0.0-4.0-2.6","exp_id":"outcome-response-priming-task","full_screen":true,"focus_shifts":0},{"rt":null,"prompt":null,"direction":"left","test_part":"test-response","correct_response":"right","trial_type":"html-mouse-response","trial_index":102,"time_elapsed":237140,"internal_node_id":"0.0-4.0-3.6","correct":false,"exp_id":"outcome-response-priming-task","full_screen":true,"focus_shifts":0},{"rt":null,"stimulus":"<div>On the following trial, you can earn 1 crisp point</div>","key_press":null,"test_part":"test-response","correct_response":"right","trial_type":"html-keyboard-response","trial_index":103,"time_elapsed":239642,"internal_node_id":"0.0-4.0-0.7","exp_id":"outcome-response-priming-task","full_screen":true,"focus_shifts":0},{"rt":null,"stimulus":"img/crisp.jpg","key_press":null,"test_part":"test-response","correct_response":"right","trial_type":"image-keyboard-response","trial_index":104,"time_elapsed":242644,"internal_node_id":"0.0-4.0-1.7","exp_id":"outcome-response-priming-task","full_screen":true,"focus_shifts":0},{"rt":null,"prompt":"<div id=\"distraction-prompt\">Keep the dot within the square.</div>","direction":"","test_part":"test-response","correct_response":"right","trial_type":"html-mouse-response","trial_index":105,"time_elapsed":244647,"internal_node_id":"0.0-4.0-2.7","exp_id":"outcome-response-priming-task","full_screen":true,"focus_shifts":0},{"rt":null,"prompt":null,"direction":"left","test_part":"test-response","correct_response":"right","trial_type":"html-mouse-response","trial_index":106,"time_elapsed":245967,"internal_node_id":"0.0-4.0-3.7","correct":false,"exp_id":"outcome-response-priming-task","full_screen":true,"focus_shifts":0},{"rt":null,"stimulus":"<div>On the following trial, you can earn 1 crisp point</div>","key_press":null,"test_part":"test-response","correct_response":"right","trial_type":"html-keyboard-response","trial_index":107,"time_elapsed":248469,"internal_node_id":"0.0-4.0-0.8","exp_id":"outcome-response-priming-task","full_screen":true,"focus_shifts":0},{"rt":null,"stimulus":"img/crisp.jpg","key_press":null,"test_part":"test-response","correct_response":"right","trial_type":"image-keyboard-response","trial_index":108,"time_elapsed":251472,"internal_node_id":"0.0-4.0-1.8","exp_id":"outcome-response-priming-task","full_screen":true,"focus_shifts":0},{"rt":null,"prompt":"<div id=\"distraction-prompt\">Keep the dot within the square.</div>","direction":"","test_part":"test-response","correct_response":"right","trial_type":"html-mouse-response","trial_index":109,"time_elapsed":261475,"internal_node_id":"0.0-4.0-2.8","exp_id":"outcome-response-priming-task","full_screen":true,"focus_shifts":0},{"rt":null,"prompt":null,"direction":"right","test_part":"test-response","correct_response":"right","trial_type":"html-mouse-response","trial_index":110,"time_elapsed":261962,"internal_node_id":"0.0-4.0-3.8","correct":true,"exp_id":"outcome-response-priming-task","full_screen":true,"focus_shifts":0},{"rt":null,"stimulus":"<div>On the following trial, you can earn 1 crisp point</div>","key_press":null,"test_part":"test-response","correct_response":"right","trial_type":"html-keyboard-response","trial_index":111,"time_elapsed":264465,"internal_node_id":"0.0-4.0-0.9","exp_id":"outcome-response-priming-task","full_screen":true,"focus_shifts":0},{"rt":null,"stimulus":"img/crisp.jpg","key_press":null,"test_part":"test-response","correct_response":"right","trial_type":"image-keyboard-response","trial_index":112,"time_elapsed":267467,"internal_node_id":"0.0-4.0-1.9","exp_id":"outcome-response-priming-task","full_screen":true,"focus_shifts":0},{"rt":null,"prompt":"<div id=\"distraction-prompt\">Keep the dot within the square.</div>","direction":"","test_part":"test-response","correct_response":"right","trial_type":"html-mouse-response","trial_index":113,"time_elapsed":269469,"internal_node_id":"0.0-4.0-2.9","exp_id":"outcome-response-priming-task","full_screen":true,"focus_shifts":0},{"rt":null,"prompt":null,"direction":"right","test_part":"test-response","correct_response":"right","trial_type":"html-mouse-response","trial_index":114,"time_elapsed":270391,"internal_node_id":"0.0-4.0-3.9","correct":true,"exp_id":"outcome-response-priming-task","full_screen":true,"focus_shifts":0},{"rt":null,"stimulus":"<div>On the following trial, you can earn 1 chocolate point</div>","key_press":null,"test_part":"test-response","correct_response":"left","trial_type":"html-keyboard-response","trial_index":115,"time_elapsed":272895,"internal_node_id":"0.0-4.0-0.10","exp_id":"outcome-response-priming-task","full_screen":true,"focus_shifts":0},{"rt":null,"stimulus":"img/chocolate.jpg","key_press":null,"test_part":"test-response","correct_response":"left","trial_type":"image-keyboard-response","trial_index":116,"time_elapsed":275899,"internal_node_id":"0.0-4.0-1.10","exp_id":"outcome-response-priming-task","full_screen":true,"focus_shifts":0},{"rt":null,"prompt":"<div id=\"distraction-prompt\">Keep the dot within the square.</div>","direction":"","test_part":"test-response","correct_response":"left","trial_type":"html-mouse-response","trial_index":117,"time_elapsed":277903,"internal_node_id":"0.0-4.0-2.10","exp_id":"outcome-response-priming-task","full_screen":true,"focus_shifts":0},{"rt":null,"prompt":null,"direction":"left","test_part":"test-response","correct_response":"left","trial_type":"html-mouse-response","trial_index":118,"time_elapsed":279115,"internal_node_id":"0.0-4.0-3.10","correct":true,"exp_id":"outcome-response-priming-task","full_screen":true,"focus_shifts":0},{"rt":null,"stimulus":"<div>On the following trial, you can earn 1 chocolate point</div>","key_press":null,"test_part":"test-response","correct_response":"left","trial_type":"html-keyboard-response","trial_index":119,"time_elapsed":281617,"internal_node_id":"0.0-4.0-0.11","exp_id":"outcome-response-priming-task","full_screen":true,"focus_shifts":0},{"rt":null,"stimulus":"img/chocolate.jpg","key_press":null,"test_part":"test-response","correct_response":"left","trial_type":"image-keyboard-response","trial_index":120,"time_elapsed":284620,"internal_node_id":"0.0-4.0-1.11","exp_id":"outcome-response-priming-task","full_screen":true,"focus_shifts":0},{"rt":null,"prompt":"<div id=\"distraction-prompt\">Keep the dot within the square.</div>","direction":"","test_part":"test-response","correct_response":"left","trial_type":"html-mouse-response","trial_index":121,"time_elapsed":286623,"internal_node_id":"0.0-4.0-2.11","exp_id":"outcome-response-priming-task","full_screen":true,"focus_shifts":0},{"rt":null,"prompt":null,"direction":"left","test_part":"test-response","correct_response":"left","trial_type":"html-mouse-response","trial_index":122,"time_elapsed":287824,"internal_node_id":"0.0-4.0-3.11","correct":true,"exp_id":"outcome-response-priming-task","full_screen":true,"focus_shifts":0},{"rt":2103,"stimulus":"<p>You responded correctly on 100% of the trials.</p><p>Your average response time was 0ms.</p><p>Press any key to complete the experiment. Thank you!</p>","key_press":32,"trial_type":"html-keyboard-response","trial_index":123,"time_elapsed":289933,"internal_node_id":"0.0-5.0","exp_id":"outcome-response-priming-task","full_screen":true,"focus_shifts":0}]